[frequency (THz)]	[wavelength (nm)]	[intensity]	[phase (rad)]
430.179	697.385	0.000	-524.923
430.117	697.485	0.000	-523.731
430.055	697.586	0.000	-522.545
429.992	697.687	0.000	-521.368
429.930	697.787	0.000	-520.197
429.868	697.888	0.000	-519.030
429.806	697.989	0.000	-517.870
429.744	698.090	0.000	-516.713
429.682	698.191	0.000	-515.563
429.620	698.292	0.000	-514.414
429.558	698.392	0.000	-513.271
429.496	698.493	0.000	-512.131
429.434	698.594	0.000	-510.993
429.372	698.695	0.000	-509.860
429.310	698.796	0.000	-508.729
429.248	698.897	0.000	-507.601
429.185	698.999	0.000	-506.475
429.123	699.100	0.000	-505.352
429.061	699.201	0.000	-504.230
428.999	699.302	0.000	-503.110
428.937	699.403	0.000	-501.993
428.875	699.504	0.000	-500.877
428.813	699.606	0.000	-499.762
428.751	699.707	0.000	-498.650
428.689	699.808	0.000	-497.539
428.627	699.910	0.000	-496.428
428.565	700.011	0.000	-495.321
428.503	700.113	0.000	-494.212
428.440	700.214	0.000	-493.107
428.378	700.315	0.000	-492.001
428.316	700.417	0.000	-490.898
428.254	700.518	0.000	-489.795
428.192	700.620	0.000	-488.693
428.130	700.722	0.000	-487.594
428.068	700.823	0.000	-486.494
428.006	700.925	0.000	-485.397
427.944	701.027	0.000	-484.301
427.882	701.128	0.000	-483.208
427.820	701.230	0.000	-482.116
427.758	701.332	0.000	-481.025
427.696	701.434	0.000	-479.940
427.633	701.535	0.000	-478.856
427.571	701.637	0.000	-477.779
427.509	701.739	0.000	-476.704
427.447	701.841	0.000	-475.637
427.385	701.943	0.000	-474.577
427.323	702.045	0.000	-473.524
427.261	702.147	0.000	-472.481
427.199	702.249	0.000	-471.443
427.137	702.351	0.000	-470.416
427.075	702.453	0.000	-469.392
427.013	702.555	0.000	-468.374
426.951	702.658	0.000	-467.358
426.888	702.760	0.000	-466.344
426.826	702.862	0.000	-465.332
426.764	702.964	0.000	-464.316
426.702	703.066	0.000	-463.302
426.640	703.169	0.000	-462.282
426.578	703.271	0.000	-461.261
426.516	703.373	0.000	-460.234
426.454	703.476	0.000	-459.202
426.392	703.578	0.000	-458.166
426.330	703.681	0.000	-457.123
426.268	703.783	0.000	-456.073
426.206	703.886	0.000	-455.017
426.144	703.988	0.000	-453.954
426.081	704.091	0.000	-452.884
426.019	704.193	0.000	-451.807
425.957	704.296	0.000	-450.721
425.895	704.399	0.000	-449.628
425.833	704.501	0.000	-448.527
425.771	704.604	0.000	-447.417
425.709	704.707	0.000	-446.298
425.647	704.810	0.000	-445.168
425.585	704.912	0.000	-444.030
425.523	705.015	0.000	-442.877
425.461	705.118	0.000	-441.713
425.399	705.221	0.000	-440.535
425.336	705.324	0.000	-439.345
425.274	705.427	0.000	-438.141
425.212	705.530	0.000	-436.923
425.150	705.633	0.000	-435.698
425.088	705.736	0.000	-434.460
425.026	705.839	0.000	-433.217
424.964	705.942	0.000	-431.966
424.902	706.045	0.000	-430.711
424.840	706.149	0.000	-429.450
424.778	706.252	0.000	-428.186
424.716	706.355	0.000	-426.922
424.654	706.458	0.000	-425.650
424.592	706.561	0.000	-424.382
424.529	706.665	0.000	-423.109
424.467	706.768	0.000	-421.837
424.405	706.872	0.000	-420.563
424.343	706.975	0.000	-419.290
424.281	707.078	0.000	-418.018
424.219	707.182	0.000	-416.744
424.157	707.285	0.000	-415.474
424.095	707.389	0.000	-414.202
424.033	707.493	0.000	-412.932
423.971	707.596	0.000	-411.666
423.909	707.700	0.000	-410.400
423.847	707.803	0.000	-409.137
423.784	707.907	0.000	-407.875
423.722	708.011	0.000	-406.618
423.660	708.115	0.000	-405.363
423.598	708.218	0.000	-404.111
423.536	708.322	0.000	-402.863
423.474	708.426	0.000	-401.618
423.412	708.530	0.000	-400.377
423.350	708.634	0.000	-399.141
423.288	708.738	0.000	-397.909
423.226	708.842	0.000	-396.681
423.164	708.946	0.000	-395.458
423.102	709.050	0.000	-394.239
423.039	709.154	0.000	-393.025
422.977	709.258	0.000	-391.818
422.915	709.362	0.000	-390.615
422.853	709.466	0.000	-389.417
422.791	709.570	0.000	-388.223
422.729	709.674	0.000	-387.036
422.667	709.779	0.000	-385.853
422.605	709.883	0.000	-384.678
422.543	709.987	0.000	-383.505
422.481	710.092	0.000	-382.340
422.419	710.196	0.000	-381.180
422.357	710.300	0.000	-380.026
422.295	710.405	0.000	-378.878
422.232	710.509	0.000	-377.735
422.170	710.614	0.000	-376.602
422.108	710.718	0.000	-375.472
422.046	710.823	0.000	-374.353
421.984	710.927	0.000	-373.240
421.922	711.032	0.000	-372.138
421.860	711.136	0.000	-371.044
421.798	711.241	0.000	-369.958
421.736	711.346	0.000	-368.884
421.674	711.451	0.000	-367.817
421.612	711.555	0.000	-366.764
421.550	711.660	0.000	-365.716
421.487	711.765	0.000	-364.679
421.425	711.870	0.000	-363.650
421.363	711.975	0.000	-362.628
421.301	712.080	0.000	-361.612
421.239	712.185	0.000	-360.601
421.177	712.289	0.000	-359.598
421.115	712.395	0.000	-358.598
421.053	712.500	0.000	-357.601
420.991	712.605	0.000	-356.609
420.929	712.710	0.000	-355.619
420.867	712.815	0.000	-354.632
420.805	712.920	0.000	-353.645
420.743	713.025	0.000	-352.662
420.680	713.130	0.000	-351.677
420.618	713.236	0.000	-350.694
420.556	713.341	0.000	-349.710
420.494	713.446	0.000	-348.723
420.432	713.552	0.000	-347.737
420.370	713.657	0.000	-346.748
420.308	713.762	0.000	-345.756
420.246	713.868	0.000	-344.760
420.184	713.973	0.000	-343.762
420.122	714.079	0.000	-342.761
420.060	714.184	0.000	-341.757
419.998	714.290	0.000	-340.750
419.935	714.396	0.000	-339.743
419.873	714.501	0.000	-338.734
419.811	714.607	0.000	-337.726
419.749	714.712	0.000	-336.720
419.687	714.818	0.000	-335.713
419.625	714.924	0.000	-334.711
419.563	715.030	0.000	-333.711
419.501	715.136	0.000	-332.717
419.439	715.241	0.000	-331.726
419.377	715.347	0.000	-330.741
419.315	715.453	0.000	-329.763
419.253	715.559	0.000	-328.789
419.191	715.665	0.000	-327.825
419.128	715.771	0.000	-326.864
419.066	715.877	0.000	-325.912
419.004	715.983	0.000	-324.966
418.942	716.089	0.000	-324.025
418.880	716.195	0.000	-323.091
418.818	716.302	0.000	-322.160
418.756	716.408	0.000	-321.237
418.694	716.514	0.000	-320.316
418.632	716.620	0.000	-319.401
418.570	716.727	0.000	-318.487
418.508	716.833	0.000	-317.579
418.446	716.939	0.000	-316.673
418.383	717.046	0.000	-315.770
418.321	717.152	0.000	-314.870
418.259	717.259	0.000	-313.971
418.197	717.365	0.000	-313.076
418.135	717.471	0.000	-312.182
418.073	717.578	0.000	-311.289
418.011	717.685	0.000	-310.400
417.949	717.791	0.000	-309.510
417.887	717.898	0.000	-308.622
417.825	718.005	0.000	-307.734
417.763	718.111	0.000	-306.848
417.701	718.218	0.000	-305.962
417.639	718.325	0.000	-305.076
417.576	718.431	0.000	-304.189
417.514	718.538	0.000	-303.302
417.452	718.645	0.000	-302.415
417.390	718.752	0.000	-301.527
417.328	718.859	0.000	-300.636
417.266	718.966	0.000	-299.743
417.204	719.073	0.000	-298.849
417.142	719.180	0.000	-297.949
417.080	719.287	0.000	-297.047
417.018	719.394	0.000	-296.141
416.956	719.501	0.000	-295.231
416.894	719.608	0.000	-294.315
416.831	719.715	0.000	-293.395
416.769	719.823	0.000	-292.471
416.707	719.930	0.000	-291.541
416.645	720.037	0.000	-290.610
416.583	720.144	0.000	-289.672
416.521	720.252	0.000	-288.733
416.459	720.359	0.000	-287.791
416.397	720.467	0.000	-286.849
416.335	720.574	0.000	-285.904
416.273	720.681	0.000	-284.958
416.211	720.789	0.000	-284.015
416.149	720.896	0.000	-283.070
416.086	721.004	0.000	-282.127
416.024	721.112	0.000	-281.185
415.962	721.219	0.000	-280.246
415.900	721.327	0.000	-279.310
415.838	721.435	0.000	-278.375
415.776	721.542	0.000	-277.449
415.714	721.650	0.000	-276.523
415.652	721.758	0.000	-275.607
415.590	721.866	0.000	-274.696
415.528	721.973	0.000	-273.792
415.466	722.081	0.000	-272.897
415.404	722.189	0.000	-272.010
415.342	722.297	0.000	-271.133
415.279	722.405	0.000	-270.262
415.217	722.513	0.000	-269.401
415.155	722.621	0.000	-268.545
415.093	722.729	0.000	-267.696
415.031	722.837	0.000	-266.853
414.969	722.946	0.000	-266.014
414.907	723.054	0.000	-265.180
414.845	723.162	0.000	-264.349
414.783	723.270	0.000	-263.522
414.721	723.378	0.000	-262.698
414.659	723.487	0.000	-261.876
414.597	723.595	0.000	-261.056
414.534	723.703	0.000	-260.238
414.472	723.812	0.000	-259.422
414.410	723.920	0.000	-258.607
414.348	724.029	0.000	-257.794
414.286	724.137	0.000	-256.982
414.224	724.246	0.000	-256.171
414.162	724.354	0.000	-255.360
414.100	724.463	0.000	-254.551
414.038	724.572	0.000	-253.743
413.976	724.680	0.000	-252.935
413.914	724.789	0.000	-252.128
413.852	724.898	0.000	-251.321
413.790	725.006	0.000	-250.516
413.727	725.115	0.000	-249.710
413.665	725.224	0.000	-248.906
413.603	725.333	0.000	-248.100
413.541	725.442	0.000	-247.297
413.479	725.551	0.000	-246.493
413.417	725.660	0.000	-245.690
413.355	725.769	0.000	-244.888
413.293	725.878	0.000	-244.086
413.231	725.987	0.000	-243.287
413.169	726.096	0.000	-242.485
413.107	726.205	0.000	-241.687
413.045	726.314	0.000	-240.889
412.982	726.423	0.000	-240.093
412.920	726.532	0.000	-239.299
412.858	726.642	0.000	-238.506
412.796	726.751	0.000	-237.717
412.734	726.860	0.000	-236.929
412.672	726.969	0.000	-236.146
412.610	727.079	0.000	-235.364
412.548	727.188	0.000	-234.588
412.486	727.298	0.000	-233.816
412.424	727.407	0.000	-233.048
412.362	727.517	0.000	-232.284
412.300	727.626	0.000	-231.524
412.238	727.736	0.000	-230.770
412.175	727.846	0.000	-230.018
412.113	727.955	0.000	-229.270
412.051	728.065	0.000	-228.526
411.989	728.175	0.000	-227.785
411.927	728.284	0.000	-227.046
411.865	728.394	0.000	-226.308
411.803	728.504	0.000	-225.574
411.741	728.614	0.000	-224.841
411.679	728.723	0.000	-224.109
411.617	728.833	0.000	-223.380
411.555	728.943	0.000	-222.651
411.493	729.053	0.000	-221.926
411.430	729.163	0.000	-221.202
411.368	729.273	0.000	-220.481
411.306	729.384	0.000	-219.761
411.244	729.494	0.000	-219.045
411.182	729.604	0.000	-218.331
411.120	729.714	0.000	-217.621
411.058	729.824	0.000	-216.914
410.996	729.934	0.000	-216.211
410.934	730.045	0.000	-215.511
410.872	730.155	0.000	-214.813
410.810	730.265	0.000	-214.120
410.748	730.376	0.000	-213.429
410.686	730.486	0.000	-212.743
410.623	730.596	0.000	-212.058
410.561	730.707	0.000	-211.376
410.499	730.817	0.000	-210.696
410.437	730.928	0.000	-210.019
410.375	731.039	0.000	-209.344
410.313	731.149	0.000	-208.671
410.251	731.260	0.000	-208.000
410.189	731.371	0.000	-207.330
410.127	731.481	0.000	-206.663
410.065	731.592	0.000	-205.997
410.003	731.703	0.000	-205.333
409.941	731.813	0.000	-204.671
409.878	731.924	0.000	-204.010
409.816	732.035	0.000	-203.352
409.754	732.146	0.000	-202.694
409.692	732.257	0.000	-202.039
409.630	732.368	0.000	-201.385
409.568	732.479	0.000	-200.732
409.506	732.590	0.000	-200.081
409.444	732.701	0.000	-199.429
409.382	732.812	0.000	-198.780
409.320	732.923	0.000	-198.131
409.258	733.035	0.000	-197.483
409.196	733.146	0.000	-196.833
409.133	733.257	0.000	-196.185
409.071	733.368	0.000	-195.537
409.009	733.480	0.000	-194.888
408.947	733.591	0.000	-194.238
408.885	733.702	0.000	-193.588
408.823	733.814	0.000	-192.938
408.761	733.925	0.000	-192.285
408.699	734.037	0.000	-191.633
408.637	734.148	0.000	-190.978
408.575	734.260	0.000	-190.323
408.513	734.371	0.000	-189.666
408.451	734.483	0.000	-189.009
408.389	734.595	0.000	-188.349
408.326	734.706	0.000	-187.688
408.264	734.818	0.000	-187.027
408.202	734.930	0.000	-186.362
408.140	735.042	0.000	-185.697
408.078	735.153	0.000	-185.031
408.016	735.265	0.000	-184.364
407.954	735.377	0.000	-183.694
407.892	735.489	0.000	-183.024
407.830	735.601	0.000	-182.353
407.768	735.713	0.000	-181.680
407.706	735.825	0.000	-181.007
407.644	735.937	0.000	-180.331
407.581	736.049	0.000	-179.656
407.519	736.161	0.000	-178.980
407.457	736.273	0.000	-178.302
407.395	736.386	0.000	-177.625
407.333	736.498	0.000	-176.946
407.271	736.610	0.000	-176.269
407.209	736.723	0.000	-175.590
407.147	736.835	0.000	-174.912
407.085	736.947	0.000	-174.235
407.023	737.060	0.000	-173.559
406.961	737.172	0.000	-172.885
406.899	737.285	0.000	-172.212
406.837	737.397	0.000	-171.546
406.774	737.510	0.000	-170.884
406.712	737.622	0.000	-170.233
406.650	737.735	0.000	-169.595
406.588	737.847	0.000	-168.979
406.526	737.960	0.000	-168.389
406.464	738.073	0.000	-167.820
406.402	738.185	0.000	-167.270
406.340	738.298	0.000	-166.730
406.278	738.411	0.000	-166.200
406.216	738.524	0.000	-165.675
406.154	738.637	0.000	-165.156
406.092	738.750	0.000	-164.641
406.029	738.863	0.000	-164.131
405.967	738.976	0.000	-163.626
405.905	739.089	0.000	-163.125
405.843	739.202	0.000	-162.632
405.781	739.315	0.000	-162.147
405.719	739.428	0.000	-161.673
405.657	739.541	0.000	-161.210
405.595	739.654	0.000	-160.762
405.533	739.768	0.000	-160.329
405.471	739.881	0.000	-159.910
405.409	739.994	0.000	-159.503
405.347	740.108	0.000	-159.106
405.285	740.221	0.000	-158.716
405.222	740.334	0.000	-158.332
405.160	740.448	0.000	-157.953
405.098	740.561	0.000	-157.577
405.036	740.675	0.000	-157.204
404.974	740.788	0.000	-156.833
404.912	740.902	0.000	-156.463
404.850	741.015	0.000	-156.096
404.788	741.129	0.000	-155.728
404.726	741.243	0.000	-155.363
404.664	741.356	0.000	-154.997
404.602	741.470	0.000	-154.632
404.540	741.584	0.000	-154.268
404.477	741.698	0.000	-153.904
404.415	741.812	0.000	-153.541
404.353	741.926	0.000	-153.177
404.291	742.039	0.000	-152.815
404.229	742.153	0.000	-152.452
404.167	742.267	0.000	-152.090
404.105	742.381	0.000	-151.729
404.043	742.495	0.000	-151.368
403.981	742.610	0.000	-151.009
403.919	742.724	0.000	-150.650
403.857	742.838	0.000	-150.295
403.795	742.952	0.000	-149.942
403.733	743.066	0.000	-149.593
403.670	743.181	0.000	-149.251
403.608	743.295	0.000	-148.917
403.546	743.409	0.000	-148.597
403.484	743.524	0.000	-148.295
403.422	743.638	0.000	-148.011
403.360	743.753	0.000	-147.745
403.298	743.867	0.000	-147.491
403.236	743.982	0.000	-147.245
403.174	744.096	0.000	-147.005
403.112	744.211	0.000	-146.767
403.050	744.325	0.000	-146.530
402.988	744.440	0.000	-146.293
402.925	744.555	0.000	-146.054
402.863	744.669	0.000	-145.813
402.801	744.784	0.000	-145.570
402.739	744.899	0.000	-145.323
402.677	745.014	0.000	-145.072
402.615	745.129	0.000	-144.817
402.553	745.244	0.000	-144.557
402.491	745.359	0.000	-144.291
402.429	745.473	0.000	-144.020
402.367	745.589	0.000	-143.743
402.305	745.704	0.000	-143.461
402.243	745.819	0.000	-143.171
402.180	745.934	0.000	-142.877
402.118	746.049	0.000	-142.576
402.056	746.164	0.000	-142.270
401.994	746.279	0.000	-141.959
401.932	746.395	0.000	-141.641
401.870	746.510	0.000	-141.320
401.808	746.625	0.000	-140.993
401.746	746.741	0.000	-140.663
401.684	746.856	0.000	-140.327
401.622	746.972	0.000	-139.988
401.560	747.087	0.000	-139.644
401.498	747.203	0.000	-139.296
401.436	747.318	0.000	-138.943
401.373	747.434	0.000	-138.585
401.311	747.549	0.000	-138.224
401.249	747.665	0.000	-137.855
401.187	747.781	0.000	-137.481
401.125	747.896	0.000	-137.099
401.063	748.012	0.000	-136.707
401.001	748.128	0.000	-136.305
400.939	748.244	0.000	-135.890
400.877	748.360	0.000	-135.463
400.815	748.476	0.000	-135.022
400.753	748.591	0.000	-134.572
400.691	748.708	0.000	-134.113
400.628	748.824	0.000	-133.648
400.566	748.940	0.000	-133.181
400.504	749.056	0.000	-132.712
400.442	749.172	0.000	-132.243
400.380	749.288	0.000	-131.776
400.318	749.404	0.000	-131.312
400.256	749.520	0.000	-130.850
400.194	749.637	0.000	-130.392
400.132	749.753	0.000	-129.938
400.070	749.869	0.000	-129.486
400.008	749.986	0.000	-129.038
399.946	750.102	0.000	-128.593
399.884	750.218	0.000	-128.150
399.821	750.335	0.000	-127.709
399.759	750.451	0.000	-127.271
399.697	750.568	0.000	-126.834
399.635	750.685	0.000	-126.399
399.573	750.801	0.000	-125.965
399.511	750.918	0.000	-125.533
399.449	751.035	0.000	-125.101
399.387	751.152	0.000	-124.670
399.325	751.268	0.000	-124.240
399.263	751.385	0.000	-123.810
399.201	751.502	0.000	-123.381
399.139	751.619	0.000	-122.952
399.076	751.736	0.000	-122.525
399.014	751.853	0.000	-122.097
398.952	751.970	0.000	-121.669
398.890	752.087	0.000	-121.242
398.828	752.204	0.000	-120.814
398.766	752.321	0.000	-120.388
398.704	752.438	0.000	-119.960
398.642	752.555	0.000	-119.533
398.580	752.672	0.000	-119.106
398.518	752.790	0.000	-118.678
398.456	752.907	0.000	-118.250
398.394	753.024	0.000	-117.821
398.332	753.142	0.000	-117.393
398.269	753.259	0.000	-116.963
398.207	753.376	0.000	-116.533
398.145	753.494	0.000	-116.102
398.083	753.611	0.000	-115.670
398.021	753.729	0.000	-115.238
397.959	753.846	0.000	-114.803
397.897	753.964	0.000	-114.368
397.835	754.082	0.000	-113.931
397.773	754.199	0.000	-113.493
397.711	754.317	0.000	-113.052
397.649	754.435	0.000	-112.609
397.587	754.553	0.000	-112.165
397.524	754.671	0.000	-111.717
397.462	754.788	0.000	-111.266
397.400	754.906	0.000	-110.811
397.338	755.024	0.000	-110.352
397.276	755.142	0.000	-109.888
397.214	755.260	0.000	-109.418
397.152	755.378	0.000	-108.942
397.090	755.496	0.000	-108.458
397.028	755.615	0.000	-107.965
396.966	755.733	0.000	-107.464
396.904	755.851	0.000	-106.951
396.842	755.969	0.000	-106.429
396.780	756.087	0.000	-105.898
396.717	756.206	0.000	-105.355
396.655	756.324	0.000	-104.804
396.593	756.443	0.000	-104.243
396.531	756.561	0.000	-103.673
396.469	756.679	0.000	-103.090
396.407	756.798	0.000	-102.491
396.345	756.916	0.000	-101.868
396.283	757.035	0.000	-101.208
396.221	757.154	0.000	-100.513
396.159	757.272	0.000	-99.793
396.097	757.391	0.000	-99.058
396.035	757.510	0.000	-98.314
395.972	757.628	0.000	-97.564
395.910	757.747	0.000	-96.810
395.848	757.866	0.000	-96.052
395.786	757.985	0.000	-95.293
395.724	758.104	0.000	-94.531
395.662	758.223	0.000	-93.768
395.600	758.342	0.000	-93.003
395.538	758.461	0.000	-92.238
395.476	758.580	0.000	-91.472
395.414	758.699	0.000	-90.704
395.352	758.818	0.000	-89.938
395.290	758.937	0.000	-89.170
395.227	759.057	0.000	-88.402
395.165	759.176	0.000	-87.634
395.103	759.295	0.000	-86.865
395.041	759.414	0.000	-86.097
394.979	759.534	0.000	-85.328
394.917	759.653	0.000	-84.560
394.855	759.773	0.000	-83.790
394.793	759.892	0.000	-83.022
394.731	760.012	0.000	-82.253
394.669	760.131	0.000	-81.484
394.607	760.251	0.000	-80.715
394.545	760.370	0.000	-79.946
394.483	760.490	0.000	-79.176
394.420	760.610	0.000	-78.405
394.358	760.729	0.000	-77.633
394.296	760.849	0.000	-76.860
394.234	760.969	0.000	-76.084
394.172	761.089	0.000	-75.303
394.110	761.209	0.000	-74.509
394.048	761.329	0.000	-73.673
393.986	761.449	0.000	-72.769
393.924	761.569	0.000	-71.826
393.862	761.689	0.000	-70.870
393.800	761.809	0.000	-69.908
393.738	761.929	0.000	-68.940
393.675	762.049	0.000	-67.968
393.613	762.169	0.000	-66.990
393.551	762.289	0.000	-66.006
393.489	762.410	0.000	-65.015
393.427	762.530	0.000	-64.015
393.365	762.650	0.000	-63.008
393.303	762.771	0.000	-61.990
393.241	762.891	0.000	-60.965
393.179	763.012	0.000	-59.932
393.117	763.132	0.000	-58.893
393.055	763.253	0.000	-57.849
392.993	763.373	0.000	-56.802
392.931	763.494	0.000	-55.751
392.868	763.615	0.000	-54.698
392.806	763.735	0.000	-53.647
392.744	763.856	0.000	-52.592
392.682	763.977	0.000	-51.539
392.620	764.097	0.000	-50.488
392.558	764.218	0.000	-49.438
392.496	764.339	0.000	-48.390
392.434	764.460	0.000	-47.344
392.372	764.581	0.000	-46.303
392.310	764.702	0.000	-45.264
392.248	764.823	0.000	-44.230
392.186	764.944	0.000	-43.203
392.123	765.065	0.000	-42.180
392.061	765.186	0.000	-41.165
391.999	765.308	0.000	-40.157
391.937	765.429	0.000	-39.159
391.875	765.550	0.000	-38.171
391.813	765.671	0.000	-37.197
391.751	765.793	0.000	-36.237
391.689	765.914	0.000	-35.294
391.627	766.035	0.000	-34.374
391.565	766.157	0.000	-33.475
391.503	766.278	0.000	-32.603
391.441	766.400	0.000	-31.756
391.379	766.521	0.000	-30.935
391.316	766.643	0.000	-30.134
391.254	766.765	0.000	-29.350
391.192	766.886	0.000	-28.581
391.130	767.008	0.000	-27.823
391.068	767.130	0.000	-27.075
391.006	767.252	0.000	-26.336
390.944	767.373	0.000	-25.604
390.882	767.495	0.000	-24.879
390.820	767.617	0.000	-24.161
390.758	767.739	0.000	-23.447
390.696	767.861	0.000	-22.740
390.634	767.983	0.000	-22.037
390.571	768.105	0.000	-21.340
390.509	768.227	0.000	-20.646
390.447	768.350	0.000	-19.956
390.385	768.472	0.000	-19.272
390.323	768.594	0.000	-18.591
390.261	768.716	0.000	-17.916
390.199	768.839	0.000	-17.244
390.137	768.961	0.000	-16.578
390.075	769.083	0.000	-15.917
390.013	769.206	0.001	-15.260
389.951	769.328	0.001	-14.608
389.889	769.451	0.001	-13.962
389.826	769.573	0.001	-13.323
389.764	769.696	0.001	-12.690
389.702	769.818	0.001	-12.066
389.640	769.941	0.002	-11.450
389.578	770.064	0.002	-10.844
389.516	770.186	0.002	-10.249
389.454	770.309	0.002	-9.665
389.392	770.432	0.002	-9.095
389.330	770.555	0.003	-8.538
389.268	770.678	0.003	-7.994
389.206	770.801	0.003	-7.464
389.144	770.924	0.003	-6.947
389.082	771.047	0.004	-6.444
389.019	771.170	0.004	-5.955
388.957	771.293	0.004	-5.482
388.895	771.416	0.004	-5.030
388.833	771.539	0.005	-4.608
388.771	771.662	0.005	-4.221
388.709	771.786	0.005	-3.869
388.647	771.909	0.005	-3.541
388.585	772.032	0.005	-3.229
388.523	772.155	0.005	-2.929
388.461	772.279	0.006	-2.639
388.399	772.402	0.006	-2.357
388.337	772.526	0.006	-2.081
388.274	772.649	0.006	-1.813
388.212	772.773	0.006	-1.552
388.150	772.896	0.006	-1.297
388.088	773.020	0.006	-1.048
388.026	773.144	0.006	-0.807
387.964	773.267	0.006	-0.574
387.902	773.391	0.006	-0.348
387.840	773.515	0.006	-0.131
387.778	773.639	0.007	0.076
387.716	773.763	0.007	0.273
387.654	773.887	0.007	0.459
387.592	774.011	0.007	0.634
387.530	774.135	0.007	0.798
387.467	774.259	0.007	0.952
387.405	774.383	0.007	1.095
387.343	774.507	0.007	1.228
387.281	774.631	0.007	1.345
387.219	774.755	0.007	1.370
387.157	774.879	0.007	1.303
387.095	775.004	0.007	1.220
387.033	775.128	0.006	1.129
386.971	775.252	0.006	1.034
386.909	775.377	0.006	0.934
386.847	775.501	0.006	0.831
386.785	775.626	0.006	0.725
386.722	775.750	0.006	0.616
386.660	775.875	0.006	0.504
386.598	775.999	0.006	0.391
386.536	776.124	0.005	0.276
386.474	776.249	0.006	0.159
386.412	776.373	0.006	0.041
386.350	776.498	0.006	-0.077
386.288	776.623	0.006	-0.196
386.226	776.748	0.007	-0.316
386.164	776.873	0.007	-0.434
386.102	776.997	0.008	-0.552
386.040	777.122	0.008	-0.668
385.978	777.247	0.009	-0.780
385.915	777.373	0.009	-0.889
385.853	777.497	0.010	-0.991
385.791	777.623	0.011	-1.085
385.729	777.748	0.012	-1.166
385.667	777.873	0.013	-1.234
385.605	777.998	0.014	-1.286
385.543	778.123	0.015	-1.324
385.481	778.249	0.016	-1.349
385.419	778.374	0.017	-1.366
385.357	778.500	0.018	-1.375
385.295	778.625	0.019	-1.379
385.233	778.750	0.020	-1.380
385.170	778.876	0.022	-1.378
385.108	779.002	0.023	-1.374
385.046	779.127	0.025	-1.369
384.984	779.253	0.026	-1.363
384.922	779.379	0.028	-1.356
384.860	779.504	0.029	-1.349
384.798	779.630	0.031	-1.341
384.736	779.756	0.033	-1.334
384.674	779.882	0.035	-1.326
384.612	780.007	0.037	-1.318
384.550	780.133	0.038	-1.311
384.488	780.259	0.040	-1.303
384.425	780.385	0.042	-1.296
384.363	780.511	0.044	-1.289
384.301	780.637	0.046	-1.283
384.239	780.764	0.048	-1.276
384.177	780.890	0.050	-1.270
384.115	781.016	0.053	-1.264
384.053	781.142	0.055	-1.258
383.991	781.268	0.057	-1.253
383.929	781.395	0.059	-1.248
383.867	781.521	0.061	-1.243
383.805	781.648	0.064	-1.239
383.743	781.774	0.066	-1.234
383.681	781.901	0.068	-1.230
383.618	782.027	0.070	-1.226
383.556	782.154	0.073	-1.223
383.494	782.280	0.075	-1.219
383.432	782.407	0.077	-1.216
383.370	782.534	0.080	-1.212
383.308	782.660	0.082	-1.209
383.246	782.787	0.085	-1.206
383.184	782.914	0.087	-1.203
383.122	783.041	0.089	-1.200
383.060	783.168	0.092	-1.197
382.998	783.295	0.094	-1.194
382.936	783.422	0.097	-1.191
382.873	783.549	0.100	-1.188
382.811	783.676	0.102	-1.185
382.749	783.803	0.105	-1.182
382.687	783.930	0.107	-1.179
382.625	784.057	0.110	-1.176
382.563	784.184	0.113	-1.172
382.501	784.312	0.115	-1.169
382.439	784.439	0.118	-1.165
382.377	784.566	0.121	-1.161
382.315	784.694	0.124	-1.157
382.253	784.821	0.127	-1.153
382.191	784.949	0.130	-1.149
382.129	785.076	0.133	-1.144
382.066	785.204	0.136	-1.139
382.004	785.331	0.139	-1.134
381.942	785.459	0.142	-1.129
381.880	785.587	0.146	-1.123
381.818	785.715	0.149	-1.117
381.756	785.842	0.152	-1.111
381.694	785.970	0.156	-1.105
381.632	786.098	0.159	-1.098
381.570	786.226	0.163	-1.092
381.508	786.354	0.166	-1.084
381.446	786.482	0.170	-1.077
381.384	786.610	0.174	-1.069
381.321	786.738	0.178	-1.062
381.259	786.866	0.181	-1.054
381.197	786.994	0.185	-1.045
381.135	787.122	0.189	-1.037
381.073	787.250	0.194	-1.028
381.011	787.379	0.198	-1.019
380.949	787.507	0.202	-1.009
380.887	787.635	0.206	-1.000
380.825	787.764	0.210	-0.990
380.763	787.892	0.215	-0.980
380.701	788.021	0.219	-0.970
380.639	788.149	0.224	-0.960
380.576	788.278	0.228	-0.949
380.514	788.407	0.233	-0.939
380.452	788.535	0.237	-0.928
380.390	788.664	0.242	-0.917
380.328	788.793	0.247	-0.906
380.266	788.921	0.252	-0.894
380.204	789.050	0.256	-0.883
380.142	789.179	0.261	-0.871
380.080	789.308	0.266	-0.859
380.018	789.437	0.271	-0.847
379.956	789.566	0.276	-0.835
379.894	789.695	0.281	-0.823
379.832	789.824	0.286	-0.811
379.769	789.953	0.291	-0.799
379.707	790.082	0.296	-0.786
379.645	790.211	0.301	-0.773
379.583	790.341	0.307	-0.761
379.521	790.470	0.312	-0.748
379.459	790.599	0.317	-0.735
379.397	790.729	0.323	-0.722
379.335	790.858	0.328	-0.709
379.273	790.987	0.334	-0.696
379.211	791.117	0.340	-0.683
379.149	791.246	0.345	-0.669
379.087	791.376	0.351	-0.656
379.024	791.506	0.357	-0.643
378.962	791.635	0.363	-0.629
378.900	791.765	0.369	-0.616
378.838	791.895	0.375	-0.602
378.776	792.025	0.381	-0.589
378.714	792.154	0.388	-0.575
378.652	792.284	0.394	-0.561
378.590	792.414	0.401	-0.548
378.528	792.544	0.408	-0.534
378.466	792.674	0.415	-0.521
378.404	792.804	0.422	-0.507
378.342	792.934	0.429	-0.493
378.280	793.064	0.436	-0.480
378.217	793.195	0.444	-0.466
378.155	793.325	0.451	-0.453
378.093	793.455	0.459	-0.439
378.031	793.585	0.467	-0.426
377.969	793.716	0.475	-0.413
377.907	793.846	0.483	-0.399
377.845	793.977	0.492	-0.386
377.783	794.107	0.500	-0.373
377.721	794.237	0.509	-0.360
377.659	794.368	0.518	-0.347
377.597	794.499	0.527	-0.335
377.535	794.629	0.536	-0.322
377.472	794.760	0.545	-0.310
377.410	794.891	0.555	-0.297
377.348	795.021	0.564	-0.285
377.286	795.152	0.574	-0.273
377.224	795.283	0.584	-0.261
377.162	795.414	0.594	-0.250
377.100	795.545	0.604	-0.238
377.038	795.676	0.614	-0.227
376.976	795.807	0.624	-0.216
376.914	795.938	0.634	-0.205
376.852	796.069	0.644	-0.195
376.790	796.200	0.655	-0.184
376.728	796.332	0.665	-0.174
376.665	796.463	0.676	-0.164
376.603	796.594	0.686	-0.155
376.541	796.726	0.696	-0.145
376.479	796.857	0.707	-0.136
376.417	796.988	0.717	-0.127
376.355	797.120	0.727	-0.119
376.293	797.251	0.738	-0.111
376.231	797.383	0.748	-0.103
376.169	797.514	0.758	-0.095
376.107	797.646	0.768	-0.088
376.045	797.778	0.777	-0.080
375.983	797.909	0.787	-0.074
375.920	798.041	0.797	-0.067
375.858	798.173	0.806	-0.061
375.796	798.305	0.815	-0.055
375.734	798.437	0.824	-0.049
375.672	798.569	0.833	-0.044
375.610	798.701	0.842	-0.039
375.548	798.833	0.850	-0.034
375.486	798.965	0.859	-0.030
375.424	799.097	0.867	-0.025
375.362	799.229	0.874	-0.021
375.300	799.361	0.882	-0.018
375.238	799.494	0.889	-0.014
375.175	799.626	0.896	-0.011
375.113	799.758	0.903	-0.009
375.051	799.890	0.910	-0.006
374.989	800.023	0.916	-0.004
374.927	800.155	0.922	-0.002
374.865	800.288	0.928	0.000
374.803	800.420	0.933	0.002
374.741	800.553	0.939	0.003
374.679	800.686	0.944	0.004
374.617	800.818	0.948	0.005
374.555	800.951	0.953	0.005
374.493	801.084	0.957	0.006
374.431	801.217	0.961	0.006
374.368	801.349	0.965	0.006
374.306	801.483	0.969	0.005
374.244	801.615	0.972	0.005
374.182	801.748	0.975	0.004
374.120	801.881	0.978	0.004
374.058	802.015	0.981	0.003
373.996	802.148	0.983	0.001
373.934	802.281	0.986	0.000
373.872	802.414	0.988	-0.001
373.810	802.547	0.990	-0.003
373.748	802.681	0.992	-0.005
373.686	802.814	0.993	-0.006
373.623	802.947	0.995	-0.008
373.561	803.081	0.996	-0.011
373.499	803.214	0.997	-0.013
373.437	803.348	0.998	-0.015
373.375	803.481	0.999	-0.018
373.313	803.615	0.999	-0.020
373.251	803.749	1.000	-0.023
373.189	803.882	1.000	-0.026
373.127	804.016	1.000	-0.028
373.065	804.150	1.000	-0.031
373.003	804.284	1.000	-0.034
372.941	804.418	0.999	-0.038
372.879	804.552	0.999	-0.041
372.816	804.686	0.998	-0.044
372.754	804.820	0.997	-0.047
372.692	804.954	0.996	-0.051
372.630	805.088	0.995	-0.054
372.568	805.222	0.993	-0.058
372.506	805.356	0.992	-0.062
372.444	805.490	0.990	-0.066
372.382	805.625	0.988	-0.070
372.320	805.759	0.985	-0.074
372.258	805.893	0.983	-0.078
372.196	806.028	0.980	-0.082
372.134	806.162	0.977	-0.087
372.071	806.297	0.973	-0.091
372.009	806.431	0.970	-0.096
371.947	806.566	0.966	-0.101
371.885	806.701	0.961	-0.105
371.823	806.835	0.957	-0.110
371.761	806.970	0.952	-0.116
371.699	807.105	0.947	-0.121
371.637	807.239	0.942	-0.127
371.575	807.374	0.936	-0.132
371.513	807.509	0.930	-0.138
371.451	807.644	0.923	-0.144
371.389	807.779	0.917	-0.150
371.326	807.914	0.909	-0.157
371.264	808.049	0.902	-0.164
371.202	808.185	0.894	-0.170
371.140	808.320	0.886	-0.178
371.078	808.455	0.878	-0.185
371.016	808.590	0.869	-0.192
370.954	808.725	0.860	-0.200
370.892	808.861	0.850	-0.208
370.830	808.996	0.840	-0.216
370.768	809.132	0.830	-0.225
370.706	809.267	0.820	-0.234
370.644	809.403	0.809	-0.243
370.582	809.539	0.798	-0.252
370.519	809.674	0.787	-0.262
370.457	809.810	0.775	-0.272
370.395	809.945	0.763	-0.282
370.333	810.081	0.751	-0.292
370.271	810.217	0.739	-0.303
370.209	810.353	0.726	-0.314
370.147	810.489	0.714	-0.326
370.085	810.625	0.701	-0.337
370.023	810.761	0.688	-0.349
369.961	810.897	0.674	-0.362
369.899	811.033	0.661	-0.374
369.837	811.169	0.647	-0.387
369.774	811.305	0.634	-0.401
369.712	811.441	0.620	-0.414
369.650	811.578	0.607	-0.428
369.588	811.714	0.593	-0.443
369.526	811.850	0.579	-0.457
369.464	811.987	0.565	-0.472
369.402	812.123	0.551	-0.487
369.340	812.260	0.538	-0.503
369.278	812.396	0.524	-0.519
369.216	812.533	0.510	-0.535
369.154	812.670	0.497	-0.552
369.092	812.806	0.484	-0.569
369.030	812.943	0.470	-0.586
368.967	813.080	0.457	-0.604
368.905	813.217	0.444	-0.622
368.843	813.354	0.431	-0.640
368.781	813.490	0.419	-0.658
368.719	813.627	0.406	-0.677
368.657	813.764	0.394	-0.697
368.595	813.902	0.382	-0.716
368.533	814.039	0.370	-0.736
368.471	814.176	0.358	-0.756
368.409	814.313	0.347	-0.777
368.347	814.450	0.335	-0.798
368.285	814.587	0.324	-0.819
368.222	814.725	0.314	-0.840
368.160	814.862	0.303	-0.862
368.098	815.000	0.293	-0.884
368.036	815.137	0.283	-0.907
367.974	815.275	0.273	-0.930
367.912	815.412	0.264	-0.953
367.850	815.550	0.254	-0.976
367.788	815.687	0.245	-1.000
367.726	815.825	0.237	-1.025
367.664	815.963	0.228	-1.049
367.602	816.101	0.220	-1.074
367.540	816.238	0.212	-1.100
367.478	816.377	0.204	-1.126
367.415	816.514	0.197	-1.152
367.353	816.652	0.189	-1.178
367.291	816.790	0.182	-1.206
367.229	816.928	0.175	-1.233
367.167	817.067	0.169	-1.261
367.105	817.205	0.162	-1.290
367.043	817.343	0.156	-1.319
366.981	817.481	0.150	-1.349
366.919	817.620	0.144	-1.379
366.857	817.758	0.138	-1.410
366.795	817.896	0.133	-1.442
366.733	818.035	0.127	-1.474
366.670	818.173	0.122	-1.508
366.608	818.312	0.117	-1.542
366.546	818.450	0.112	-1.576
366.484	818.589	0.108	-1.612
366.422	818.728	0.103	-1.649
366.360	818.867	0.099	-1.687
366.298	819.005	0.094	-1.725
366.236	819.144	0.090	-1.765
366.174	819.283	0.086	-1.807
366.112	819.422	0.082	-1.849
366.050	819.561	0.079	-1.893
365.988	819.700	0.075	-1.938
365.925	819.839	0.072	-1.985
365.863	819.978	0.068	-2.033
365.801	820.117	0.065	-2.083
365.739	820.256	0.062	-2.135
365.677	820.396	0.059	-2.189
365.615	820.535	0.056	-2.245
365.553	820.674	0.053	-2.302
365.491	820.814	0.051	-2.362
365.429	820.953	0.048	-2.424
365.367	821.093	0.046	-2.489
365.305	821.232	0.044	-2.556
365.243	821.372	0.041	-2.626
365.181	821.511	0.039	-2.698
365.118	821.651	0.037	-2.773
365.056	821.791	0.035	-2.851
364.994	821.931	0.034	-2.932
364.932	822.070	0.032	-3.016
364.870	822.210	0.030	-3.103
364.808	822.350	0.029	-3.194
364.746	822.490	0.027	-3.287
364.684	822.630	0.026	-3.384
364.622	822.770	0.025	-3.484
364.560	822.910	0.024	-3.588
364.498	823.051	0.023	-3.695
364.436	823.191	0.022	-3.805
364.373	823.331	0.021	-3.918
364.311	823.471	0.020	-4.035
364.249	823.612	0.019	-4.156
364.187	823.752	0.019	-4.279
364.125	823.892	0.018	-4.406
364.063	824.033	0.017	-4.536
364.001	824.173	0.017	-4.669
363.939	824.314	0.016	-4.805
363.877	824.455	0.016	-4.944
363.815	824.595	0.016	-5.086
363.753	824.736	0.015	-5.230
363.691	824.877	0.015	-5.377
363.629	825.018	0.015	-5.527
363.566	825.159	0.015	-5.679
363.504	825.300	0.015	-5.833
363.442	825.440	0.014	-5.990
363.380	825.582	0.014	-6.149
363.318	825.723	0.014	-6.309
363.256	825.864	0.014	-6.472
363.194	826.005	0.014	-6.636
363.132	826.146	0.014	-6.802
363.070	826.287	0.014	-6.969
363.008	826.429	0.014	-7.137
362.946	826.570	0.014	-7.307
362.884	826.711	0.014	-7.477
362.821	826.853	0.014	-7.647
362.759	826.994	0.013	-7.818
362.697	827.136	0.013	-7.988
362.635	827.277	0.013	-8.158
362.573	827.419	0.013	-8.326
362.511	827.561	0.013	-8.492
362.449	827.703	0.013	-8.655
362.387	827.844	0.012	-8.815
362.325	827.986	0.012	-8.969
362.263	828.128	0.012	-9.117
362.201	828.270	0.012	-9.258
362.139	828.412	0.011	-9.393
362.076	828.554	0.011	-9.520
362.014	828.696	0.011	-9.641
361.952	828.838	0.010	-9.756
361.890	828.981	0.010	-9.868
361.828	829.123	0.010	-9.977
361.766	829.265	0.009	-10.084
361.704	829.407	0.009	-10.189
361.642	829.550	0.008	-10.295
361.580	829.692	0.008	-10.400
361.518	829.835	0.007	-10.507
361.456	829.977	0.007	-10.614
361.394	830.120	0.007	-10.723
361.332	830.262	0.006	-10.834
361.269	830.405	0.006	-10.947
361.207	830.548	0.005	-11.062
361.145	830.690	0.005	-11.179
361.083	830.833	0.005	-11.299
361.021	830.976	0.004	-11.421
360.959	831.119	0.004	-11.546
360.897	831.262	0.003	-11.673
360.835	831.405	0.003	-11.804
360.773	831.548	0.003	-11.937
360.711	831.691	0.002	-12.073
360.649	831.834	0.002	-12.213
360.587	831.978	0.002	-12.355
360.524	832.121	0.002	-12.501
360.462	832.264	0.001	-12.649
360.400	832.408	0.001	-12.801
360.338	832.551	0.001	-12.957
360.276	832.694	0.001	-13.115
360.214	832.838	0.001	-13.278
360.152	832.981	0.001	-13.444
360.090	833.125	0.000	-13.614
360.028	833.269	0.000	-13.787
359.966	833.413	0.000	-13.965
359.904	833.556	0.000	-14.147
359.842	833.700	0.000	-14.334
359.780	833.844	0.000	-14.526
359.717	833.988	0.000	-14.723
359.655	834.132	0.000	-14.926
359.593	834.276	0.000	-15.136
359.531	834.420	0.000	-15.354
359.469	834.564	0.000	-15.579
359.407	834.708	0.000	-15.811
359.345	834.852	0.000	-16.033
359.283	834.997	0.000	-16.182
359.221	835.141	0.000	-16.266
359.159	835.285	0.000	-16.356
359.097	835.430	0.000	-16.457
359.035	835.574	0.000	-16.570
358.972	835.719	0.000	-16.694
358.910	835.863	0.000	-16.826
358.848	836.008	0.000	-16.966
358.786	836.152	0.000	-17.114
358.724	836.297	0.000	-17.268
358.662	836.442	0.000	-17.427
358.600	836.587	0.000	-17.591
358.538	836.732	0.000	-17.761
358.476	836.876	0.000	-17.934
358.414	837.021	0.000	-18.111
358.352	837.166	0.000	-18.292
358.290	837.311	0.000	-18.477
358.228	837.456	0.000	-18.665
358.165	837.602	0.000	-18.857
358.103	837.747	0.000	-19.052
358.041	837.892	0.000	-19.249
357.979	838.037	0.000	-19.451
357.917	838.183	0.000	-19.655
357.855	838.328	0.000	-19.862
357.793	838.474	0.000	-20.073
357.731	838.619	0.000	-20.286
357.669	838.765	0.000	-20.503
357.607	838.910	0.000	-20.723
357.545	839.056	0.000	-20.946
357.483	839.202	0.000	-21.172
357.420	839.348	0.000	-21.402
357.358	839.493	0.000	-21.633
357.296	839.639	0.000	-21.865
357.234	839.785	0.000	-22.093
357.172	839.931	0.000	-22.307
357.110	840.077	0.000	-22.492
357.048	840.223	0.000	-22.647
356.986	840.369	0.000	-22.787
356.924	840.515	0.000	-22.926
356.862	840.662	0.000	-23.070
356.800	840.808	0.000	-23.220
356.738	840.954	0.000	-23.378
356.676	841.101	0.000	-23.544
356.613	841.247	0.000	-23.717
356.551	841.394	0.000	-23.897
356.489	841.540	0.000	-24.083
356.427	841.687	0.000	-24.274
356.365	841.833	0.000	-24.470
356.303	841.980	0.000	-24.671
356.241	842.127	0.000	-24.876
356.179	842.273	0.000	-25.086
356.117	842.420	0.000	-25.299
356.055	842.567	0.000	-25.516
355.993	842.714	0.000	-25.737
355.931	842.861	0.000	-25.962
355.868	843.008	0.000	-26.190
355.806	843.155	0.000	-26.422
355.744	843.302	0.000	-26.657
355.682	843.449	0.000	-26.896
355.620	843.597	0.000	-27.140
355.558	843.744	0.000	-27.388
355.496	843.891	0.000	-27.639
355.434	844.039	0.000	-27.896
355.372	844.186	0.000	-28.159
355.310	844.334	0.000	-28.427
355.248	844.481	0.000	-28.702
355.186	844.629	0.000	-28.985
355.123	844.777	0.000	-29.277
355.061	844.924	0.000	-29.580
354.999	845.072	0.000	-29.896
354.937	845.220	0.000	-30.229
354.875	845.368	0.000	-30.582
354.813	845.515	0.000	-30.957
354.751	845.663	0.000	-31.359
354.689	845.811	0.000	-31.788
354.627	845.959	0.000	-32.244
354.565	846.108	0.000	-32.727
354.503	846.256	0.000	-33.233
354.441	846.404	0.000	-33.759
354.379	846.552	0.000	-34.303
354.316	846.701	0.000	-34.861
354.254	846.849	0.000	-35.432
354.192	846.997	0.000	-36.012
354.130	847.146	0.000	-36.603
354.068	847.294	0.000	-37.200
354.006	847.443	0.000	-37.806
353.944	847.592	0.000	-38.418
353.882	847.740	0.000	-39.037
353.820	847.889	0.000	-39.663
353.758	848.038	0.000	-40.295
353.696	848.187	0.000	-40.935
353.634	848.336	0.000	-41.583
353.571	848.485	0.000	-42.239
353.509	848.634	0.000	-42.905
353.447	848.783	0.000	-43.583
353.385	848.932	0.000	-44.273
353.323	849.081	0.000	-44.978
353.261	849.230	0.000	-45.700
353.199	849.379	0.000	-46.438
353.137	849.529	0.000	-47.192
353.075	849.678	0.000	-47.961
353.013	849.828	0.000	-48.746
352.951	849.977	0.000	-49.544
352.889	850.127	0.000	-50.357
352.827	850.276	0.000	-51.186
352.764	850.426	0.000	-52.034
352.702	850.575	0.000	-52.904
352.640	850.725	0.000	-53.799
352.578	850.875	0.000	-54.717
352.516	851.025	0.000	-55.652
352.454	851.175	0.000	-56.604
352.392	851.325	0.000	-57.565
352.330	851.475	0.000	-58.534
352.268	851.625	0.000	-59.510
352.206	851.775	0.000	-60.492
352.144	851.925	0.000	-61.478
352.082	852.075	0.000	-62.466
352.019	852.226	0.000	-63.461
351.957	852.376	0.000	-64.456
351.895	852.526	0.000	-65.454
351.833	852.677	0.000	-66.454
351.771	852.827	0.000	-67.457
351.709	852.978	0.000	-68.462
351.647	853.128	0.000	-69.468
351.585	853.279	0.000	-70.477
351.523	853.429	0.000	-71.485
351.461	853.580	0.000	-72.496
351.399	853.731	0.000	-73.509
351.337	853.882	0.000	-74.521
351.275	854.033	0.000	-75.535
351.212	854.184	0.000	-76.550
351.150	854.335	0.000	-77.568
351.088	854.486	0.000	-78.584
351.026	854.637	0.000	-79.602
350.964	854.788	0.000	-80.622
350.902	854.939	0.000	-81.641
350.840	855.091	0.000	-82.661
350.778	855.242	0.000	-83.682
350.716	855.393	0.000	-84.703
350.654	855.545	0.000	-85.726
350.592	855.696	0.000	-86.749
350.530	855.848	0.000	-87.771
350.467	856.000	0.000	-88.794
350.405	856.151	0.000	-89.818
350.343	856.303	0.000	-90.841
350.281	856.455	0.000	-91.864
350.219	856.606	0.000	-92.887
350.157	856.758	0.000	-93.910
350.095	856.910	0.000	-94.931
350.033	857.062	0.000	-95.953
349.971	857.214	0.000	-96.972
349.909	857.366	0.000	-97.992
349.847	857.518	0.000	-99.008
349.785	857.671	0.000	-100.023
349.723	857.823	0.000	-101.036
349.660	857.975	0.000	-102.046
349.598	858.128	0.000	-103.054
349.536	858.280	0.000	-104.056
349.474	858.432	0.000	-105.057
349.412	858.585	0.000	-106.051
349.350	858.738	0.000	-107.042
349.288	858.890	0.000	-108.028
349.226	859.043	0.000	-109.007
349.164	859.196	0.000	-109.983
349.102	859.348	0.000	-110.952
349.040	859.501	0.000	-111.917
348.978	859.654	0.000	-112.877
348.915	859.807	0.000	-113.831
348.853	859.960	0.000	-114.784
348.791	860.113	0.000	-115.731
348.729	860.266	0.000	-116.677
348.667	860.419	0.000	-117.622
348.605	860.573	0.000	-118.566
348.543	860.726	0.000	-119.509
348.481	860.879	0.000	-120.455
348.419	861.033	0.000	-121.402
348.357	861.186	0.000	-122.351
348.295	861.340	0.000	-123.305
348.233	861.493	0.000	-124.262
348.170	861.647	0.000	-125.225
348.108	861.800	0.000	-126.192
348.046	861.954	0.000	-127.167
347.984	862.108	0.000	-128.145
347.922	862.262	0.000	-129.128
347.860	862.416	0.000	-130.115
347.798	862.570	0.000	-131.107
347.736	862.723	0.000	-132.100
347.674	862.878	0.000	-133.098
347.612	863.032	0.000	-134.098
347.550	863.186	0.000	-135.098
347.488	863.340	0.000	-136.101
347.426	863.494	0.000	-137.105
347.363	863.649	0.000	-138.109
347.301	863.803	0.000	-139.112
347.239	863.957	0.000	-140.118
347.177	864.112	0.000	-141.124
347.115	864.266	0.000	-142.128
347.053	864.421	0.000	-143.134
346.991	864.576	0.000	-144.139
346.929	864.730	0.000	-145.144
346.867	864.885	0.000	-146.148
346.805	865.040	0.000	-147.153
346.743	865.195	0.000	-148.157
346.681	865.350	0.000	-149.161
346.618	865.505	0.000	-150.165
346.556	865.660	0.000	-151.168
346.494	865.815	0.000	-152.172
346.432	865.970	0.000	-153.176
346.370	866.125	0.000	-154.179
346.308	866.281	0.000	-155.182
346.246	866.436	0.000	-156.185
346.184	866.591	0.000	-157.191
346.122	866.747	0.000	-158.194
346.060	866.902	0.000	-159.200
345.998	867.058	0.000	-160.207
345.936	867.213	0.000	-161.214
345.874	867.369	0.000	-162.224
345.811	867.525	0.000	-163.234
345.749	867.680	0.000	-164.249
345.687	867.836	0.000	-165.265
345.625	867.992	0.000	-166.287
345.563	868.148	0.000	-167.312
345.501	868.304	0.000	-168.344
345.439	868.460	0.000	-169.381
345.377	868.616	0.000	-170.426
345.315	868.772	0.000	-171.478
345.253	868.929	0.000	-172.538
345.191	869.085	0.000	-173.606
345.129	869.241	0.000	-174.681
345.066	869.398	0.000	-175.763
345.004	869.554	0.000	-176.851
344.942	869.711	0.000	-177.944
344.880	869.867	0.000	-179.041
344.818	870.024	0.000	-180.141
344.756	870.180	0.000	-181.244
344.694	870.337	0.000	-182.350
344.632	870.494	0.000	-183.458
344.570	870.651	0.000	-184.566
344.508	870.808	0.000	-185.677
344.446	870.965	0.000	-186.788
344.384	871.122	0.000	-187.900
344.322	871.279	0.000	-189.013
344.259	871.436	0.000	-190.126
344.197	871.593	0.000	-191.239
344.135	871.750	0.000	-192.351
344.073	871.907	0.000	-193.466
344.011	872.065	0.000	-194.578
343.949	872.222	0.000	-195.691
343.887	872.380	0.000	-196.804
343.825	872.537	0.000	-197.917
343.763	872.695	0.000	-199.030
343.701	872.852	0.000	-200.142
343.639	873.010	0.000	-201.257
343.577	873.168	0.000	-202.367
343.514	873.326	0.000	-203.481
343.452	873.483	0.000	-204.594
343.390	873.641	0.000	-205.707
343.328	873.799	0.000	-206.820
343.266	873.957	0.000	-207.934
343.204	874.116	0.000	-209.050
343.142	874.273	0.000	-210.164
343.080	874.432	0.000	-211.282
343.018	874.590	0.000	-212.401
342.956	874.748	0.000	-213.522
342.894	874.907	0.000	-214.647
342.832	875.065	0.000	-215.778
342.770	875.224	0.000	-216.918
342.707	875.382	0.000	-218.077
342.645	875.541	0.000	-219.274
342.583	875.699	0.000	-220.514
342.521	875.858	0.000	-221.785
342.459	876.017	0.000	-223.071
342.397	876.176	0.000	-224.366
342.335	876.335	0.000	-225.667
342.273	876.494	0.000	-226.971
342.211	876.653	0.000	-228.280
342.149	876.812	0.000	-229.590
342.087	876.971	0.000	-230.902
342.025	877.130	0.000	-232.219
341.962	877.289	0.000	-233.535
341.900	877.448	0.000	-234.853
341.838	877.608	0.000	-236.173
341.776	877.767	0.000	-237.494
341.714	877.927	0.000	-238.817
341.652	878.086	0.000	-240.141
341.590	878.246	0.000	-241.465
341.528	878.406	0.000	-242.792
341.466	878.565	0.000	-244.117
341.404	878.725	0.000	-245.444
341.342	878.885	0.000	-246.772
341.280	879.045	0.000	-248.099
341.217	879.205	0.000	-249.429
341.155	879.364	0.000	-250.756
341.093	879.525	0.000	-252.086
341.031	879.685	0.000	-253.413
340.969	879.845	0.000	-254.743
340.907	880.005	0.000	-256.071
340.845	880.165	0.000	-257.399
340.783	880.326	0.000	-258.727
340.721	880.486	0.000	-260.055
340.659	880.647	0.000	-261.385
340.597	880.807	0.000	-262.709
340.535	880.968	0.000	-264.038
340.473	881.128	0.000	-265.364
340.410	881.289	0.000	-266.689
340.348	881.450	0.000	-268.014
340.286	881.610	0.000	-269.339
340.224	881.771	0.000	-270.663
340.162	881.932	0.000	-271.985
340.100	882.093	0.000	-273.308
340.038	882.254	0.000	-274.628
339.976	882.415	0.000	-275.947
339.914	882.577	0.000	-277.266
339.852	882.738	0.000	-278.582
339.790	882.899	0.000	-279.898
339.728	883.060	0.000	-281.212
339.665	883.222	0.000	-282.526
339.603	883.383	0.000	-283.836
339.541	883.545	0.000	-285.145
339.479	883.706	0.000	-286.454
339.417	883.868	0.000	-287.760
339.355	884.030	0.000	-289.063
339.293	884.191	0.000	-290.366
339.231	884.353	0.000	-291.667
339.169	884.515	0.000	-292.965
339.107	884.677	0.000	-294.262
339.045	884.839	0.000	-295.557
338.983	885.001	0.000	-296.848
338.921	885.163	0.000	-298.138
338.858	885.325	0.000	-299.427
338.796	885.488	0.000	-300.712
338.734	885.650	0.000	-301.996
338.672	885.812	0.000	-303.279
338.610	885.975	0.000	-304.557
338.548	886.137	0.000	-305.836
338.486	886.300	0.000	-307.110
338.424	886.462	0.000	-308.385
338.362	886.625	0.000	-309.654
338.300	886.787	0.000	-310.922
338.238	886.950	0.000	-312.189
338.176	887.113	0.000	-313.450
338.113	887.276	0.000	-314.711
338.051	887.439	0.000	-315.967
337.989	887.602	0.000	-317.221
337.927	887.765	0.000	-318.469
337.865	887.928	0.000	-319.715
337.803	888.091	0.000	-320.956
337.741	888.254	0.000	-322.192
337.679	888.418	0.000	-323.427
337.617	888.581	0.000	-324.654
337.555	888.745	0.000	-325.879
337.493	888.908	0.000	-327.099
337.431	889.072	0.000	-328.313
337.369	889.235	0.000	-329.526
337.306	889.399	0.000	-330.733
337.244	889.563	0.000	-331.938
337.182	889.726	0.000	-333.138
337.120	889.890	0.000	-334.337
337.058	890.054	0.000	-335.531
336.996	890.218	0.000	-336.723
336.934	890.382	0.000	-337.912
336.872	890.546	0.000	-339.098
336.810	890.710	0.000	-340.283
336.748	890.875	0.000	-341.465
336.686	891.039	0.000	-342.645
336.624	891.203	0.000	-343.822
336.561	891.368	0.000	-344.999
336.499	891.532	0.000	-346.174
336.437	891.697	0.000	-347.346
336.375	891.861	0.000	-348.516
336.313	892.026	0.000	-349.686
336.251	892.190	0.000	-350.854
336.189	892.355	0.000	-352.019
336.127	892.520	0.000	-353.185
336.065	892.685	0.000	-354.348
336.003	892.850	0.000	-355.510
335.941	893.015	0.000	-356.671
335.879	893.180	0.000	-357.830
335.817	893.345	0.000	-358.987
335.754	893.510	0.000	-360.145
335.692	893.675	0.000	-361.302
335.630	893.841	0.000	-362.455
335.568	894.006	0.000	-363.611
335.506	894.171	0.000	-364.764
335.444	894.337	0.000	-365.916
335.382	894.502	0.000	-367.067
335.320	894.668	0.000	-368.218
335.258	894.834	0.000	-369.370
335.196	894.999	0.000	-370.518
335.134	895.165	0.000	-371.668
335.072	895.331	0.000	-372.817
335.009	895.497	0.000	-373.966
334.947	895.663	0.000	-375.114
334.885	895.829	0.000	-376.262
334.823	895.995	0.000	-377.410
334.761	896.161	0.000	-378.557
334.699	896.328	0.000	-379.707
334.637	896.494	0.000	-380.853
334.575	896.660	0.000	-382.002
334.513	896.827	0.000	-383.150
334.451	896.993	0.000	-384.298
334.389	897.160	0.000	-385.447
334.327	897.326	0.000	-386.594
334.264	897.493	0.000	-387.745
334.202	897.659	0.000	-388.893
334.140	897.826	0.000	-390.044
334.078	897.993	0.000	-391.195
334.016	898.160	0.000	-392.346
333.954	898.327	0.000	-393.498
333.892	898.494	0.000	-394.651
333.830	898.661	0.000	-395.805
333.768	898.828	0.000	-396.960
333.706	898.996	0.000	-398.117
333.644	899.163	0.000	-399.274
333.582	899.330	0.000	-400.434
333.520	899.497	0.000	-401.596
333.457	899.665	0.000	-402.760
333.395	899.832	0.000	-403.927
333.333	900.000	0.000	-405.098
333.271	900.168	0.000	-406.273
333.209	900.335	0.000	-407.455
333.147	900.503	0.000	-408.644
333.085	900.671	0.000	-409.842
333.023	900.839	0.000	-411.053
332.961	901.007	0.000	-412.277
332.899	901.175	0.000	-413.515
332.837	901.343	0.000	-414.767
332.775	901.511	0.000	-416.029
332.712	901.679	0.000	-417.300
332.650	901.848	0.000	-418.574
332.588	902.016	0.000	-419.855
332.526	902.184	0.000	-421.132
332.464	902.353	0.000	-422.406
332.402	902.521	0.000	-423.670
332.340	902.690	0.000	-424.916
332.278	902.859	0.000	-426.135
332.216	903.027	0.000	-427.324
332.154	903.196	0.000	-428.498
332.092	903.365	0.000	-429.657
332.030	903.534	0.000	-430.811
331.968	903.703	0.000	-431.961
331.905	903.872	0.000	-433.108
331.843	904.041	0.000	-434.253
331.781	904.210	0.000	-435.398
331.719	904.379	0.000	-436.543
331.657	904.548	0.000	-437.683
331.595	904.718	0.000	-438.828
331.533	904.887	0.000	-439.970
331.471	905.057	0.000	-441.111
331.409	905.226	0.000	-442.254
331.347	905.396	0.000	-443.396
331.285	905.566	0.000	-444.539
331.223	905.735	0.000	-445.680
331.160	905.905	0.000	-446.823
331.098	906.075	0.000	-447.966
331.036	906.245	0.000	-449.108
330.974	906.415	0.000	-450.251
330.912	906.585	0.000	-451.395
330.850	906.755	0.000	-452.539
330.788	906.925	0.000	-453.684
330.726	907.096	0.000	-454.831
330.664	907.266	0.000	-455.977
330.602	907.436	0.000	-457.131
330.540	907.607	0.000	-458.315
330.478	907.777	0.000	-459.590
330.416	907.948	0.000	-460.918
330.353	908.118	0.000	-462.254
330.291	908.289	0.000	-463.594
330.229	908.460	0.000	-464.932
330.167	908.631	0.000	-466.273
330.105	908.801	0.000	-467.614
330.043	908.972	0.000	-468.956
329.981	909.143	0.000	-470.297
329.919	909.314	0.000	-471.640
329.857	909.485	0.000	-472.983
329.795	909.657	0.000	-474.327
329.733	909.828	0.000	-475.672
329.671	909.999	0.000	-477.016
329.608	910.171	0.000	-478.362
329.546	910.342	0.000	-479.707
329.484	910.514	0.000	-481.055
329.422	910.685	0.000	-482.402
329.360	910.857	0.000	-483.751
329.298	911.029	0.000	-485.103
329.236	911.200	0.000	-486.456
329.174	911.372	0.000	-487.822
329.112	911.544	0.000	-489.223
329.050	911.716	0.000	-490.702
328.988	911.888	0.000	-492.229
328.926	912.060	0.000	-493.765
328.864	912.232	0.000	-495.305
328.801	912.405	0.000	-496.847
328.739	912.577	0.000	-498.392
328.677	912.749	0.000	-499.935
328.615	912.922	0.000	-501.482
328.553	913.094	0.000	-503.028
328.491	913.267	0.000	-504.575
328.429	913.439	0.000	-506.125
328.367	913.612	0.000	-507.672
328.305	913.785	0.000	-509.224
328.243	913.958	0.000	-510.774
328.181	914.131	0.000	-512.327
328.119	914.304	0.000	-513.881
328.056	914.477	0.000	-515.433
327.994	914.650	0.000	-516.990
327.932	914.823	0.000	-518.546
327.870	914.996	0.000	-520.103
327.808	915.169	0.000	-521.664
327.746	915.343	0.000	-523.227
327.684	915.516	0.000	-524.789
327.622	915.690	0.000	-526.357
327.560	915.863	0.000	-527.926
327.498	916.037	0.000	-529.497
327.436	916.210	0.000	-531.073
327.374	916.384	0.000	-532.655
327.311	916.558	0.000	-534.241
327.249	916.732	0.000	-535.833
327.187	916.906	0.000	-537.436
327.125	917.080	0.000	-539.048
327.063	917.254	0.000	-540.673
327.001	917.428	0.000	-542.313
326.939	917.602	0.000	-543.976
326.877	917.776	0.000	-545.665
326.815	917.951	0.000	-547.394
326.753	918.125	0.000	-549.169
326.691	918.300	0.000	-550.974
326.629	918.474	0.000	-552.805
326.567	918.649	0.000	-554.648
326.504	918.824	0.000	-556.501
326.442	918.998	0.000	-558.358
326.380	919.173	0.000	-560.223
326.318	919.348	0.000	-562.094
326.256	919.523	0.000	-563.963
326.194	919.698	0.000	-565.840
326.132	919.873	0.000	-567.717
326.070	920.048	0.000	-569.596
326.008	920.223	0.000	-571.475
325.946	920.399	0.000	-573.356
325.884	920.574	0.000	-575.241
325.822	920.749	0.000	-577.123
325.759	920.925	0.000	-579.011
325.697	921.100	0.000	-580.895
325.635	921.276	0.000	-582.785
325.573	921.452	0.000	-584.674
325.511	921.627	0.000	-586.565
325.449	921.803	0.000	-588.457
325.387	921.979	0.000	-590.349
325.325	922.155	0.000	-592.247
325.263	922.331	0.000	-594.142
325.201	922.507	0.000	-596.042
325.139	922.683	0.000	-597.944
325.077	922.859	0.000	-599.847
325.015	923.036	0.000	-601.754
324.952	923.212	0.000	-603.661
324.890	923.388	0.000	-605.572
324.828	923.565	0.000	-607.488
324.766	923.741	0.000	-609.406
324.704	923.918	0.000	-611.326
324.642	924.095	0.000	-613.253
324.580	924.271	0.000	-615.182
324.518	924.448	0.000	-617.115
324.456	924.625	0.000	-619.053
324.394	924.802	0.000	-620.995
324.332	924.979	0.000	-622.942
324.270	925.156	0.000	-624.895
324.207	925.333	0.000	-626.853
324.145	925.510	0.000	-628.814
324.083	925.688	0.000	-630.786
324.021	925.865	0.000	-632.761
323.959	926.043	0.000	-634.742
323.897	926.220	0.000	-636.728
323.835	926.398	0.000	-638.722
323.773	926.575	0.000	-640.725
323.711	926.753	0.000	-642.727
323.649	926.931	0.000	-644.742
323.587	927.109	0.000	-646.761
323.525	927.286	0.000	-648.785
323.463	927.464	0.000	-650.815
323.400	927.642	0.000	-652.851
323.338	927.821	0.000	-654.893
323.276	927.999	0.000	-656.938
323.214	928.177	0.000	-658.993
323.152	928.355	0.000	-661.046
323.090	928.534	0.000	-663.109
323.028	928.712	0.000	-665.175
322.966	928.891	0.000	-667.245
322.904	929.069	0.000	-669.320
322.842	929.248	0.000	-671.395
322.780	929.427	0.000	-673.479
322.718	929.605	0.000	-675.560
322.655	929.784	0.000	-677.647
322.593	929.963	0.000	-679.735
322.531	930.142	0.000	-681.824
322.469	930.321	0.000	-683.913
322.407	930.500	0.000	-686.002
322.345	930.680	0.000	-688.088
322.283	930.859	0.000	-690.169
322.221	931.038	0.000	-692.246
322.159	931.217	0.000	-694.314
322.097	931.397	0.000	-696.374
322.035	931.577	0.000	-698.425
321.973	931.756	0.000	-700.469
321.911	931.936	0.000	-702.507
321.848	932.116	0.000	-704.540
321.786	932.296	0.000	-706.572
321.724	932.475	0.000	-708.601
321.662	932.655	0.000	-710.632
321.600	932.835	0.000	-712.664
321.538	933.016	0.000	-714.696
321.476	933.196	0.000	-716.729
321.414	933.376	0.000	-718.766
321.352	933.556	0.000	-720.806
321.290	933.737	0.000	-722.849
321.228	933.917	0.000	-724.896
321.166	934.098	0.000	-726.943
321.103	934.278	0.000	-729.000
321.041	934.459	0.000	-731.056
320.979	934.640	0.000	-733.118
320.917	934.820	0.000	-735.185
320.855	935.001	0.000	-737.255
320.793	935.182	0.000	-739.333
320.731	935.363	0.000	-741.411
320.669	935.544	0.000	-743.499
320.607	935.726	0.000	-745.587
320.545	935.907	0.000	-747.685
320.483	936.088	0.000	-749.785
320.421	936.269	0.000	-751.891
320.359	936.451	0.000	-754.003
320.296	936.632	0.000	-756.120
320.234	936.814	0.000	-758.246
320.172	936.995	0.000	-760.370
320.110	937.177	0.000	-762.507
320.048	937.359	0.000	-764.647
319.986	937.541	0.000	-766.790
319.924	937.723	0.000	-768.941
319.862	937.905	0.000	-771.096
319.800	938.087	0.000	-773.258
319.738	938.269	0.000	-775.420
319.676	938.451	0.000	-777.592
319.614	938.634	0.000	-779.765
319.551	938.816	0.000	-781.941
319.489	938.998	0.000	-784.124
319.427	939.181	0.000	-786.307
319.365	939.363	0.000	-788.496
319.303	939.546	0.000	-790.688
319.241	939.729	0.000	-792.885
319.179	939.911	0.000	-795.081
319.117	940.094	0.000	-797.280
319.055	940.277	0.000	-799.484
318.993	940.460	0.000	-801.687
318.931	940.643	0.000	-803.892
318.869	940.826	0.000	-806.099
318.806	941.010	0.000	-808.309
318.744	941.193	0.000	-810.516
318.682	941.376	0.000	-812.727
318.620	941.560	0.000	-814.935
318.558	941.743	0.000	-817.142
318.496	941.927	0.000	-819.348
318.434	942.110	0.000	-821.555
318.372	942.294	0.000	-823.755
318.310	942.478	0.000	-825.956
318.248	942.662	0.000	-828.156
318.186	942.845	0.000	-830.348
318.124	943.030	0.000	-832.541
318.062	943.214	0.000	-834.726
317.999	943.398	0.000	-836.912
317.937	943.582	0.000	-839.091
317.875	943.766	0.000	-841.268
317.813	943.951	0.000	-843.445
317.751	944.135	0.000	-845.616
317.689	944.320	0.000	-847.788
317.627	944.504	0.000	-849.957
317.565	944.689	0.000	-852.125
317.503	944.873	0.000	-854.289
317.441	945.058	0.000	-856.455
317.379	945.243	0.000	-858.620
317.317	945.428	0.000	-860.782
317.254	945.613	0.000	-862.948
317.192	945.798	0.000	-865.110
317.130	945.983	0.000	-867.275
317.068	946.168	0.000	-869.438
317.006	946.354	0.000	-871.600
316.944	946.539	0.000	-873.766
316.882	946.725	0.000	-875.927
316.820	946.910	0.000	-878.093
316.758	947.096	0.000	-880.255
316.696	947.281	0.000	-882.422
316.634	947.467	0.000	-884.587
316.572	947.653	0.000	-886.752
316.510	947.839	0.000	-888.917
316.447	948.025	0.000	-891.081
316.385	948.211	0.000	-893.248
316.323	948.397	0.000	-895.414
316.261	948.583	0.000	-897.582
316.199	948.769	0.000	-899.748
316.137	948.956	0.000	-901.917
316.075	949.142	0.000	-904.086
316.013	949.328	0.000	-906.254
315.951	949.515	0.000	-908.423
315.889	949.701	0.000	-910.596
315.827	949.888	0.000	-912.767
315.765	950.075	0.000	-914.938
315.702	950.262	0.000	-917.113
315.640	950.449	0.000	-919.288
315.578	950.636	0.000	-921.464
315.516	950.823	0.000	-923.642
315.454	951.010	0.000	-925.821
315.392	951.197	0.000	-928.000
315.330	951.384	0.000	-930.185
315.268	951.572	0.000	-932.370
315.206	951.759	0.000	-934.554
315.144	951.947	0.000	-936.746
315.082	952.134	0.000	-938.937
315.020	952.322	0.000	-941.132
314.958	952.509	0.000	-943.328
314.895	952.697	0.000	-945.528
314.833	952.885	0.000	-947.734
314.771	953.073	0.000	-949.936
314.709	953.261	0.000	-952.148
314.647	953.449	0.000	-954.362
314.585	953.637	0.000	-956.579
314.523	953.825	0.000	-958.800
314.461	954.014	0.000	-961.025
314.399	954.202	0.000	-963.255
314.337	954.390	0.000	-965.486
314.275	954.579	0.000	-967.729
314.213	954.768	0.000	-969.969
314.150	954.956	0.000	-972.219
314.088	955.145	0.000	-974.473
314.026	955.334	0.000	-976.732
313.964	955.523	0.000	-978.997
313.902	955.712	0.000	-981.266
313.840	955.901	0.000	-983.546
313.778	956.090	0.000	-985.827
313.716	956.279	0.000	-988.118
313.654	956.468	0.000	-990.415
313.592	956.658	0.000	-992.719
313.530	956.847	0.000	-995.031
313.468	957.037	0.000	-997.350
313.406	957.226	0.000	-999.679
313.343	957.416	0.000	-1002.014
313.281	957.606	0.000	-1004.361
313.219	957.795	0.000	-1006.715
313.157	957.985	0.000	-1009.080
313.095	958.175	0.000	-1011.454
313.033	958.365	0.000	-1013.839
312.971	958.555	0.000	-1016.233
312.909	958.746	0.000	-1018.637
312.847	958.936	0.000	-1021.050
312.785	959.126	0.000	-1023.471
312.723	959.317	0.000	-1025.903
312.661	959.507	0.000	-1028.340
312.598	959.698	0.000	-1030.787
312.536	959.888	0.000	-1033.239
312.474	960.079	0.000	-1035.699
312.412	960.270	0.000	-1038.164
312.350	960.460	0.000	-1040.635
312.288	960.652	0.000	-1043.113
312.226	960.842	0.000	-1045.592
312.164	961.034	0.000	-1048.083
312.102	961.225	0.000	-1050.573
312.040	961.416	0.000	-1053.071
311.978	961.607	0.000	-1055.574
311.916	961.799	0.000	-1058.083
311.853	961.990	0.000	-1060.600
311.791	962.182	0.000	-1063.116
311.729	962.373	0.000	-1065.650
311.667	962.565	0.000	-1068.185
311.605	962.757	0.000	-1070.731
311.543	962.949	0.000	-1073.288
311.481	963.140	0.000	-1075.856
311.419	963.332	0.000	-1078.437
311.357	963.525	0.000	-1081.028
311.295	963.717	0.000	-1083.634
311.233	963.909	0.000	-1086.242
311.171	964.101	0.000	-1088.866
311.109	964.294	0.000	-1091.495
311.046	964.486	0.000	-1094.126
310.984	964.679	0.000	-1096.765
310.922	964.871	0.000	-1099.407
310.860	965.064	0.000	-1102.055
310.798	965.257	0.000	-1104.700
310.736	965.450	0.000	-1107.350
310.674	965.643	0.000	-1110.004
310.612	965.836	0.000	-1112.655
310.550	966.029	0.000	-1115.309
310.488	966.222	0.000	-1117.964
310.426	966.415	0.000	-1120.620
310.364	966.608	0.000	-1123.277
310.301	966.802	0.000	-1125.938
310.239	966.995	0.000	-1128.594
310.177	967.189	0.000	-1131.254
310.115	967.382	0.000	-1133.916
310.053	967.576	0.000	-1136.577
309.991	967.770	0.000	-1139.238
309.929	967.964	0.000	-1141.903
309.867	968.158	0.000	-1144.572
309.805	968.351	0.000	-1147.238
309.743	968.546	0.000	-1149.910
309.681	968.740	0.000	-1152.583
309.619	968.934	0.000	-1155.262
309.557	969.128	0.000	-1157.941
309.494	969.323	0.000	-1160.628
309.432	969.517	0.000	-1163.320
309.370	969.712	0.000	-1166.019
309.308	969.906	0.000	-1168.729
309.246	970.101	0.000	-1171.443
309.184	970.296	0.000	-1174.173
309.122	970.491	0.000	-1176.908
309.060	970.686	0.000	-1179.660
308.998	970.881	0.000	-1182.420
308.936	971.076	0.000	-1185.194
308.874	971.271	0.000	-1187.984
308.812	971.466	0.000	-1190.782
308.749	971.662	0.000	-1193.600
308.687	971.857	0.000	-1196.427
308.625	972.052	0.000	-1199.275
308.563	972.248	0.000	-1202.141
308.501	972.444	0.000	-1205.022
308.439	972.639	0.000	-1207.924
308.377	972.835	0.000	-1210.839
308.315	973.031	0.000	-1213.771
308.253	973.227	0.000	-1216.706
308.191	973.423	0.000	-1219.656
308.129	973.619	0.000	-1222.610
308.067	973.815	0.000	-1225.566
308.005	974.012	0.000	-1228.533
307.942	974.208	0.000	-1231.498
307.880	974.405	0.000	-1234.473
307.818	974.601	0.000	-1237.445
307.756	974.798	0.000	-1240.425
307.694	974.994	0.000	-1243.406
307.632	975.191	0.000	-1246.385
307.570	975.388	0.000	-1249.371
307.508	975.585	0.000	-1252.357
307.446	975.782	0.000	-1255.344
307.384	975.979	0.000	-1258.334
307.322	976.176	0.000	-1261.329
307.260	976.373	0.000	-1264.319
307.197	976.571	0.000	-1267.316
307.135	976.768	0.000	-1270.313
307.073	976.965	0.000	-1273.309
307.011	977.163	0.000	-1276.306
306.949	977.360	0.000	-1279.308
306.887	977.558	0.000	-1282.309
306.825	977.756	0.000	-1285.309
306.763	977.954	0.000	-1288.316
306.701	978.152	0.000	-1291.321
306.639	978.350	0.000	-1294.327
306.577	978.548	0.000	-1297.331
306.515	978.746	0.000	-1300.343
306.453	978.944	0.000	-1303.350
306.390	979.143	0.000	-1306.360
306.328	979.341	0.000	-1309.376
306.266	979.540	0.000	-1312.387
306.204	979.738	0.000	-1315.405
306.142	979.937	0.000	-1318.421
306.080	980.136	0.000	-1321.439
306.018	980.335	0.000	-1324.456
305.956	980.533	0.000	-1327.477
305.894	980.733	0.000	-1330.504
305.832	980.932	0.000	-1333.523
305.770	981.131	0.000	-1336.553
305.708	981.330	0.000	-1339.581
305.645	981.529	0.000	-1342.612
305.583	981.729	0.000	-1345.644
305.521	981.928	0.000	-1348.677
305.459	982.128	0.000	-1351.718
305.397	982.327	0.000	-1354.756
305.335	982.527	0.000	-1357.803
305.273	982.727	0.000	-1360.848
305.211	982.927	0.000	-1363.902
305.149	983.127	0.000	-1366.958
305.087	983.327	0.000	-1370.017
305.025	983.527	0.000	-1373.081
304.963	983.727	0.000	-1376.148
304.900	983.928	0.000	-1379.226
304.838	984.128	0.000	-1382.304
304.776	984.328	0.000	-1385.391
304.714	984.529	0.000	-1388.485
304.652	984.730	0.000	-1391.586
304.590	984.930	0.000	-1394.696
304.528	985.131	0.000	-1397.813
304.466	985.332	0.000	-1400.940
304.404	985.533	0.000	-1404.081
304.342	985.734	0.000	-1407.230
304.280	985.935	0.000	-1410.386
304.218	986.136	0.000	-1413.560
304.156	986.337	0.000	-1416.740
304.093	986.539	0.000	-1419.929
304.031	986.740	0.000	-1423.127
303.969	986.942	0.000	-1426.333
303.907	987.143	0.000	-1429.546
303.845	987.345	0.000	-1432.765
303.783	987.547	0.000	-1435.993
303.721	987.749	0.000	-1439.223
303.659	987.951	0.000	-1442.461
303.597	988.153	0.000	-1445.704
303.535	988.355	0.000	-1448.952
303.473	988.557	0.000	-1452.203
303.411	988.759	0.000	-1455.460
303.348	988.962	0.000	-1458.728
303.286	989.164	0.000	-1461.989
303.224	989.367	0.000	-1465.266
303.162	989.569	0.000	-1468.543
303.100	989.772	0.000	-1471.826
